key_resp_instr.keys,key_resp_instr.rt,mouse.x,mouse.y,mouse.leftButton,mouse.midButton,mouse.rightButton,mouse.time,trials_short.thisRepN,trials_short.thisTrialN,trials_short.thisN,trials_short.thisIndex,trials_short.ran,trials_short.order,Color0_r,Color0_g,Color0_b,Color45_r,Color45_g,Color45_b,Color90_r,Color90_g,Color90_b,Color135_r,Color135_g,Color135_b,Color180_r,Color180_g,Color180_b,Color225_r,Color225_g,Color225_b,Color270_r,Color270_g,Color270_b,Color315_r,Color315_g,Color315_b,Cueresp_r,Cueresp_g,Cueresp_b,target_angle,load,delay,trial,participant,date,expName,psychopyVersion,OS,frameRate,mouse_2.x,mouse_2.y,mouse_2.leftButton,mouse_2.midButton,mouse_2.rightButton,trials_inter.thisRepN,trials_inter.thisTrialN,trials_inter.thisN,trials_inter.thisIndex,trials_inter.ran,trials_inter.order,mouse_3.x,mouse_3.y,mouse_3.leftButton,mouse_3.midButton,mouse_3.rightButton,mouse_3.time,trials_long.thisRepN,trials_long.thisTrialN,trials_long.thisN,trials_long.thisIndex,trials_long.ran,trials_long.order,final_key.keys,final_key.rt
space,35.77900004,0.439814815,0.127777778,1,0,0,49.66200018,1,0,16,6,1,15,-1,-1,1,0,0,0,1,1,1,0,0,0,0,0,0,1,-1,-1,0,0,0,0,0,0,-1,-1,1,0,3,1,6,adrián ,2021-04-09_21h13.29.214,task,3.2.3,Win32,60,,,,,,,,,,,,,,,,,,,,,,,,,
,,-0.231481481,0.233333333,1,0,0,56.96000004,1,0,16,4,1,15,0,0,0,0,0,0,1,-1,1,-1,1,1,1,1,1,0,0,0,0,0,0,0,0,0,-1,1,1,135,3,1,4,adrián ,2021-04-09_21h13.29.214,task,3.2.3,Win32,60,,,,,,,,,,,,,,,,,,,,,,,,,
,,0.394444444,-0.00462963,1,0,0,64.67700005,1,0,16,3,1,15,1,1,1,0,0,0,0,0,0,0,0,0,0,0,0,1,-1,1,-1,1,-1,0,0,0,1,1,1,0,3,1,3,adrián ,2021-04-09_21h13.29.214,task,3.2.3,Win32,60,,,,,,,,,,,,,,,,,,,,,,,,,
,,-0.381481481,-0.00462963,1,0,0,72.29400015,1,0,16,15,1,15,-1,1,-1,0,0,0,1,1,1,-1,-1,1,1,1,-1,1,-1,1,1,-1,-1,-1,1,1,1,1,-1,180,7,1,7,adrián ,2021-04-09_21h13.29.214,task,3.2.3,Win32,60,,,,,,,,,,,,,,,,,,,,,,,,,
,,0.006481481,-0.378703704,1,0,0,80.24300003,1,0,16,13,1,15,1,1,1,-1,1,-1,1,1,-1,0,0,0,1,-1,-1,-1,-1,1,-1,1,1,1,-1,1,-1,1,1,270,7,1,5,adrián ,2021-04-09_21h13.29.214,task,3.2.3,Win32,60,,,,,,,,,,,,,,,,,,,,,,,,,
,,0.258333333,0.212962963,1,0,0,87.61000013,1,0,16,14,1,15,-1,1,1,-1,1,-1,1,-1,1,0,0,0,1,1,-1,-1,-1,1,1,-1,-1,1,1,1,-1,1,-1,45,7,1,6,adrián ,2021-04-09_21h13.29.214,task,3.2.3,Win32,60,,,,,,,,,,,,,,,,,,,,,,,,,
,,-0.003703704,0.391666667,1,0,0,95.02700019,1,0,16,7,1,15,0,0,0,0,0,0,-1,-1,1,1,1,-1,0,0,0,1,-1,-1,0,0,0,0,0,0,-1,-1,1,90,3,1,7,adrián ,2021-04-09_21h13.29.214,task,3.2.3,Win32,60,,,,,,,,,,,,,,,,,,,,,,,,,
,,-0.359259259,0.162962963,1,0,0,103.3760002,1,0,16,8,1,15,1,-1,-1,1,-1,1,1,1,-1,-1,1,-1,1,1,1,0,0,0,-1,-1,1,-1,1,1,1,1,1,180,7,1,0,adrián ,2021-04-09_21h13.29.214,task,3.2.3,Win32,60,,,,,,,,,,,,,,,,,,,,,,,,,
,,0.280555556,-0.255555556,1,0,0,110.677,1,0,16,5,1,15,1,1,1,1,1,-1,0,0,0,0,0,0,0,0,0,0,0,0,0,0,0,1,-1,1,1,-1,1,315,3,1,5,adrián ,2021-04-09_21h13.29.214,task,3.2.3,Win32,60,,,,,,,,,,,,,,,,,,,,,,,,,
,,0.225,0.260185185,1,0,0,117.96,1,0,16,1,1,15,0,0,0,-1,-1,1,-1,1,-1,0,0,0,0,0,0,1,-1,1,0,0,0,0,0,0,-1,-1,1,45,3,1,1,adrián ,2021-04-09_21h13.29.214,task,3.2.3,Win32,60,,,,,,,,,,,,,,,,,,,,,,,,,
,,0.006481481,-0.392592593,1,0,0,125.9760001,1,0,16,9,1,15,0,0,0,-1,-1,1,1,-1,1,1,1,1,1,1,-1,-1,1,1,1,-1,-1,-1,1,-1,-1,1,-1,315,7,1,1,adrián ,2021-04-09_21h13.29.214,task,3.2.3,Win32,60,,,,,,,,,,,,,,,,,,,,,,,,,
,,0.376851852,0.001851852,1,0,0,133.2260001,1,0,16,0,1,15,1,-1,-1,0,0,0,0,0,0,0,0,0,0,0,0,-1,1,1,1,-1,1,0,0,0,1,-1,-1,0,3,1,0,adrián ,2021-04-09_21h13.29.214,task,3.2.3,Win32,60,,,,,,,,,,,,,,,,,,,,,,,,,
,,-0.377777778,0.015740741,1,0,0,140.6760001,1,0,16,10,1,15,0,0,0,-1,1,-1,-1,-1,1,1,1,1,1,-1,-1,1,1,-1,-1,1,1,1,-1,1,1,-1,-1,180,7,1,2,adrián ,2021-04-09_21h13.29.214,task,3.2.3,Win32,60,,,,,,,,,,,,,,,,,,,,,,,,,
,,-0.25,0.242592593,1,0,0,148.359,1,0,16,12,1,15,-1,1,-1,-1,-1,1,-1,1,1,1,-1,-1,1,1,1,1,-1,1,1,1,-1,0,0,0,1,-1,-1,135,7,1,4,adrián ,2021-04-09_21h13.29.214,task,3.2.3,Win32,60,,,,,,,,,,,,,,,,,,,,,,,,,
,,-0.353703704,0.034259259,1,0,0,155.4090002,1,0,16,11,1,15,1,1,-1,1,1,1,0,0,0,1,-1,-1,-1,1,1,1,-1,1,-1,1,-1,-1,-1,1,-1,1,1,180,7,1,3,adrián ,2021-04-09_21h13.29.214,task,3.2.3,Win32,60,,,,,,,,,,,,,,,,,,,,,,,,,
,,-0.262962963,0.238888889,1,0,0,162.592,1,0,16,2,1,15,1,-1,1,0,0,0,0,0,0,-1,-1,1,0,0,0,0,0,0,-1,1,-1,0,0,0,-1,-1,1,135,3,1,2,adrián ,2021-04-09_21h13.29.214,task,3.2.3,Win32,60,,,,,,,,,,,,,,,,,,,,,,,,,
,,,,,,,,,,,,,,1,-1,1,1,1,1,-1,-1,1,0,0,0,0,0,0,0,0,0,0,0,0,0,0,0,1,-1,1,0,3,4,5,adrián ,2021-04-09_21h13.29.214,task,3.2.3,Win32,60,0.406481481,0.002777778,1,0,0,1,0,16,5,1,15,,,,,,,,,,,,,,
,,,,,,,,,,,,,,-1,-1,1,1,1,-1,-1,1,1,0,0,0,-1,1,-1,1,-1,1,1,1,1,1,-1,-1,-1,-1,1,0,7,4,7,adrián ,2021-04-09_21h13.29.214,task,3.2.3,Win32,60,0.374074074,0.009259259,1,0,0,1,0,16,15,1,15,,,,,,,,,,,,,,
,,,,,,,,,,,,,,0,0,0,0,0,0,1,-1,-1,-1,-1,1,0,0,0,0,0,0,-1,1,-1,0,0,0,-1,-1,1,135,3,4,1,adrián ,2021-04-09_21h13.29.214,task,3.2.3,Win32,60,-0.226851852,0.287037037,1,0,0,1,0,16,1,1,15,,,,,,,,,,,,,,
,,,,,,,,,,,,,,0,0,0,-1,1,1,1,1,1,-1,-1,1,1,-1,1,-1,1,-1,1,1,-1,1,-1,-1,1,1,-1,270,7,4,6,adrián ,2021-04-09_21h13.29.214,task,3.2.3,Win32,60,0.031481481,-0.393518519,1,0,0,1,0,16,14,1,15,,,,,,,,,,,,,,
,,,,,,,,,,,,,,-1,-1,1,0,0,0,0,0,0,0,0,0,1,-1,1,0,0,0,0,0,0,1,1,-1,1,-1,1,180,3,4,3,adrián ,2021-04-09_21h13.29.214,task,3.2.3,Win32,60,-0.34537037,-0.00462963,1,0,0,1,0,16,3,1,15,,,,,,,,,,,,,,
,,,,,,,,,,,,,,1,-1,-1,1,-1,1,1,1,-1,-1,1,-1,0,0,0,-1,-1,1,-1,1,1,1,1,1,-1,1,1,270,7,4,4,adrián ,2021-04-09_21h13.29.214,task,3.2.3,Win32,60,0.000925926,-0.301851852,1,0,0,1,0,16,12,1,15,,,,,,,,,,,,,,
,,,,,,,,,,,,,,-1,-1,1,0,0,0,0,0,0,1,-1,-1,1,-1,1,0,0,0,0,0,0,0,0,0,1,-1,-1,135,3,4,0,adrián ,2021-04-09_21h13.29.214,task,3.2.3,Win32,60,-0.255555556,0.234259259,1,0,0,1,0,16,0,1,15,,,,,,,,,,,,,,
,,,,,,,,,,,,,,-1,-1,1,1,-1,1,-1,1,1,-1,1,-1,0,0,0,1,1,-1,1,1,1,1,-1,-1,-1,-1,1,0,7,4,1,adrián ,2021-04-09_21h13.29.214,task,3.2.3,Win32,60,0.290740741,0.10462963,1,0,0,1,0,16,9,1,15,,,,,,,,,,,,,,
,,,,,,,,,,,,,,1,1,1,0,0,0,1,1,-1,0,0,0,1,-1,1,0,0,0,0,0,0,0,0,0,1,1,-1,90,3,4,6,adrián ,2021-04-09_21h13.29.214,task,3.2.3,Win32,60,-0.011111111,0.401851852,1,0,0,1,0,16,6,1,15,,,,,,,,,,,,,,
,,,,,,,,,,,,,,1,-1,-1,-1,1,-1,-1,-1,1,1,1,-1,0,0,0,-1,1,1,1,-1,1,1,1,1,-1,1,-1,45,7,4,2,adrián ,2021-04-09_21h13.29.214,task,3.2.3,Win32,60,0.200925926,0.219444444,1,0,0,1,0,16,10,1,15,,,,,,,,,,,,,,
,,,,,,,,,,,,,,0,0,0,1,1,1,0,0,0,0,0,0,1,-1,1,-1,1,1,0,0,0,0,0,0,-1,1,1,225,3,4,7,adrián ,2021-04-09_21h13.29.214,task,3.2.3,Win32,60,-0.22037037,-0.2,1,0,0,1,0,16,7,1,15,,,,,,,,,,,,,,
,,,,,,,,,,,,,,1,-1,1,-1,1,1,0,0,0,-1,-1,1,0,0,0,0,0,0,0,0,0,0,0,0,-1,-1,1,135,3,4,2,adrián ,2021-04-09_21h13.29.214,task,3.2.3,Win32,60,-0.249074074,0.260185185,1,0,0,1,0,16,2,1,15,,,,,,,,,,,,,,
,,,,,,,,,,,,,,-1,1,-1,-1,1,1,0,0,0,1,-1,-1,1,-1,1,-1,-1,1,1,1,-1,1,1,1,-1,1,-1,0,7,4,0,adrián ,2021-04-09_21h13.29.214,task,3.2.3,Win32,60,0.352777778,-0.042592593,1,0,0,1,0,16,8,1,15,,,,,,,,,,,,,,
,,,,,,,,,,,,,,-1,1,1,1,1,1,0,0,0,-1,-1,1,1,1,-1,1,-1,-1,1,-1,1,-1,1,-1,-1,1,1,0,7,4,3,adrián ,2021-04-09_21h13.29.214,task,3.2.3,Win32,60,0,-0.4,1,0,0,1,0,16,11,1,15,,,,,,,,,,,,,,
,,,,,,,,,,,,,,1,-1,-1,-1,1,-1,1,1,1,1,-1,1,-1,1,1,-1,-1,1,0,0,0,1,1,-1,1,-1,-1,0,7,4,5,adrián ,2021-04-09_21h13.29.214,task,3.2.3,Win32,60,0.344444444,0.007407407,1,0,0,1,0,16,13,1,15,,,,,,,,,,,,,,
,,,,,,,,,,,,,,0,0,0,1,1,1,1,-1,-1,0,0,0,0,0,0,0,0,0,1,1,-1,0,0,0,1,1,1,45,3,4,4,adrián ,2021-04-09_21h13.29.214,task,3.2.3,Win32,60,0.210185185,0.237962963,1,0,0,1,0,16,4,1,15,,,,,,,,,,,,,,
,,,,,,,,,,,,,,-1,1,-1,0,0,0,0,0,0,1,-1,-1,0,0,0,0,0,0,0,0,0,1,-1,1,1,-1,1,315,3,7,0,adrián ,2021-04-09_21h13.29.214,task,3.2.3,Win32,60,,,,,,,,,,,,0.231481481,-0.225,1,0,0,352.372,1,0,16,0,1,15,,
,,,,,,,,,,,,,,1,1,1,-1,-1,1,1,-1,-1,-1,1,-1,-1,1,1,1,-1,1,1,1,-1,0,0,0,1,-1,1,225,7,7,7,adrián ,2021-04-09_21h13.29.214,task,3.2.3,Win32,60,,,,,,,,,,,,-0.236111111,-0.277777778,1,0,0,366.1890001,1,0,16,15,1,15,,
,,,,,,,,,,,,,,0,0,0,1,-1,1,0,0,0,0,0,0,1,-1,-1,-1,-1,1,0,0,0,0,0,0,-1,-1,1,225,3,7,2,adrián ,2021-04-09_21h13.29.214,task,3.2.3,Win32,60,,,,,,,,,,,,-0.268518519,-0.253703704,1,0,0,381.9060001,1,0,16,2,1,15,,
,,,,,,,,,,,,,,-1,1,-1,0,0,0,1,-1,1,0,0,0,0,0,0,1,1,-1,0,0,0,0,0,0,-1,1,-1,0,3,7,1,adrián ,2021-04-09_21h13.29.214,task,3.2.3,Win32,60,,,,,,,,,,,,0.388888889,-0.012962963,1,0,0,395.688,1,0,16,1,1,15,,
,,,,,,,,,,,,,,1,-1,-1,1,1,1,-1,1,-1,0,0,0,-1,-1,1,1,1,-1,1,-1,1,-1,1,1,1,1,1,45,7,7,1,adrián ,2021-04-09_21h13.29.214,task,3.2.3,Win32,60,,,,,,,,,,,,0.208333333,0.234259259,1,0,0,409.8210001,1,0,16,9,1,15,,
,,,,,,,,,,,,,,1,-1,-1,0,0,0,1,1,1,-1,-1,1,-1,1,1,-1,1,-1,1,1,-1,1,-1,1,1,1,1,90,7,7,4,adrián ,2021-04-09_21h13.29.214,task,3.2.3,Win32,60,,,,,,,,,,,,-0.012037037,0.425,1,0,0,423.2870002,1,0,16,12,1,15,,
,,,,,,,,,,,,,,1,1,-1,1,1,1,1,-1,-1,-1,-1,1,-1,1,1,-1,1,-1,1,-1,1,0,0,0,1,-1,-1,90,7,7,2,adrián ,2021-04-09_21h13.29.214,task,3.2.3,Win32,60,,,,,,,,,,,,0,0.432407407,1,0,0,436.704,1,0,16,10,1,15,,
,,,,,,,,,,,,,,0,0,0,0,0,0,0,0,0,-1,1,1,0,0,0,1,1,-1,1,-1,-1,0,0,0,1,1,-1,225,3,7,4,adrián ,2021-04-09_21h13.29.214,task,3.2.3,Win32,60,,,,,,,,,,,,-0.233333333,-0.286111111,1,0,0,450.27,1,0,16,4,1,15,,
,,,,,,,,,,,,,,0,0,0,0,0,0,1,-1,1,1,1,-1,1,-1,-1,0,0,0,0,0,0,0,0,0,1,1,-1,135,3,7,7,adrián ,2021-04-09_21h13.29.214,task,3.2.3,Win32,60,,,,,,,,,,,,-0.289814815,0.25462963,1,0,0,464.5370002,1,0,16,7,1,15,,
,,,,,,,,,,,,,,0,0,0,-1,-1,1,1,-1,-1,-1,1,1,1,1,1,1,-1,1,1,1,-1,-1,1,-1,1,-1,-1,90,7,7,3,adrián ,2021-04-09_21h13.29.214,task,3.2.3,Win32,60,,,,,,,,,,,,-0.007407407,0.42962963,1,0,0,478.503,1,0,16,11,1,15,,
,,,,,,,,,,,,,,0,0,0,-1,1,1,-1,1,-1,-1,-1,1,1,1,1,1,-1,-1,1,1,-1,1,-1,1,-1,1,-1,90,7,7,5,adrián ,2021-04-09_21h13.29.214,task,3.2.3,Win32,60,,,,,,,,,,,,-0.000925926,0.378703704,1,0,0,493.602,1,0,16,13,1,15,,
,,,,,,,,,,,,,,1,1,1,1,-1,1,-1,1,-1,-1,-1,1,0,0,0,-1,1,1,1,1,-1,1,-1,-1,1,-1,1,45,7,7,6,adrián ,2021-04-09_21h13.29.214,task,3.2.3,Win32,60,,,,,,,,,,,,0.233333333,0.252777778,1,0,0,507.802,1,0,16,14,1,15,,
,,,,,,,,,,,,,,0,0,0,1,1,-1,0,0,0,0,0,0,1,-1,-1,0,0,0,0,0,0,-1,1,-1,1,1,-1,45,3,7,5,adrián ,2021-04-09_21h13.29.214,task,3.2.3,Win32,60,,,,,,,,,,,,0.277777778,0.262037037,1,0,0,521.4520001,1,0,16,5,1,15,,
,,,,,,,,,,,,,,-1,-1,1,-1,1,1,0,0,0,1,-1,-1,1,1,-1,1,-1,1,1,1,1,-1,1,-1,1,1,-1,180,7,7,0,adrián ,2021-04-09_21h13.29.214,task,3.2.3,Win32,60,,,,,,,,,,,,-0.386111111,0.002777778,1,0,0,534.9530001,1,0,16,8,1,15,,
,,,,,,,,,,,,,,-1,-1,1,0,0,0,-1,1,1,0,0,0,0,0,0,0,0,0,1,1,-1,0,0,0,-1,1,1,90,3,7,6,adrián ,2021-04-09_21h13.29.214,task,3.2.3,Win32,60,,,,,,,,,,,,-0.022222222,0.423148148,1,0,0,548.2020001,1,0,16,6,1,15,,
,,,,,,,,,,,,,,0,0,0,0,0,0,1,-1,-1,1,-1,1,0,0,0,-1,1,1,0,0,0,0,0,0,1,-1,-1,90,3,7,3,adrián ,2021-04-09_21h13.29.214,task,3.2.3,Win32,60,,,,,,,,,,,,-0.013888889,0.437037037,1,0,0,561.2190001,1,0,16,3,1,15,,
,,,,,,,,,,,,,,,,,,,,,,,,,,,,,,,,,,,,,,,,,,,,,adrián ,2021-04-09_21h13.29.214,task,3.2.3,Win32,60,,,,,,,,,,,,,,,,,,,,,,,,space,0.815999985
