key_resp_instr.keys,key_resp_instr.rt,mouse.x,mouse.y,mouse.leftButton,mouse.midButton,mouse.rightButton,mouse.time,trials_short.thisRepN,trials_short.thisTrialN,trials_short.thisN,trials_short.thisIndex,trials_short.ran,trials_short.order,Color0_r,Color0_g,Color0_b,Color45_r,Color45_g,Color45_b,Color90_r,Color90_g,Color90_b,Color135_r,Color135_g,Color135_b,Color180_r,Color180_g,Color180_b,Color225_r,Color225_g,Color225_b,Color270_r,Color270_g,Color270_b,Color315_r,Color315_g,Color315_b,Cueresp_r,Cueresp_g,Cueresp_b,target_angle,load,delay,trial,participant,date,expName,psychopyVersion,OS,frameRate,mouse_2.x,mouse_2.y,mouse_2.leftButton,mouse_2.midButton,mouse_2.rightButton,trials_inter.thisRepN,trials_inter.thisTrialN,trials_inter.thisN,trials_inter.thisIndex,trials_inter.ran,trials_inter.order,mouse_3.x,mouse_3.y,mouse_3.leftButton,mouse_3.midButton,mouse_3.rightButton,mouse_3.time,trials_long.thisRepN,trials_long.thisTrialN,trials_long.thisN,trials_long.thisIndex,trials_long.ran,trials_long.order,final_key.keys,final_key.rt
space,0.418000221,-0.37037037,-0.009259259,1,0,0,14.72599983,1,0,16,10,1,15,0,0,0,-1,1,-1,-1,-1,1,1,1,1,1,-1,-1,1,1,-1,-1,1,1,1,-1,1,1,-1,-1,180,7,1,2,Lluís,2021-04-09_15h38.25.331,task,3.2.3,Win32,60,,,,,,,,,,,,,,,,,,,,,,,,,
,,-0.006481481,0.315740741,1,0,0,31.93899989,1,0,16,7,1,15,0,0,0,0,0,0,-1,-1,1,1,1,-1,0,0,0,1,-1,-1,0,0,0,0,0,0,-1,-1,1,90,3,1,7,Lluís,2021-04-09_15h38.25.331,task,3.2.3,Win32,60,,,,,,,,,,,,,,,,,,,,,,,,,
,,-0.226851852,-0.234259259,1,0,0,43.05499983,1,0,16,11,1,15,1,1,-1,1,1,1,0,0,0,1,-1,-1,-1,1,1,1,-1,1,-1,1,-1,-1,-1,1,-1,1,1,180,7,1,3,Lluís,2021-04-09_15h38.25.331,task,3.2.3,Win32,60,,,,,,,,,,,,,,,,,,,,,,,,,
,,-0.257407407,0.230555556,1,0,0,51.07200003,1,0,16,4,1,15,0,0,0,0,0,0,1,-1,1,-1,1,1,1,1,1,0,0,0,0,0,0,0,0,0,-1,1,1,135,3,1,4,Lluís,2021-04-09_15h38.25.331,task,3.2.3,Win32,60,,,,,,,,,,,,,,,,,,,,,,,,,
,,-0.021296296,-0.352777778,1,0,0,60.87199998,1,0,16,13,1,15,1,1,1,-1,1,-1,1,1,-1,0,0,0,1,-1,-1,-1,-1,1,-1,1,1,1,-1,1,-1,1,1,270,7,1,5,Lluís,2021-04-09_15h38.25.331,task,3.2.3,Win32,60,,,,,,,,,,,,,,,,,,,,,,,,,
,,0.341666667,-0.026851852,1,0,0,68.18899989,1,0,16,0,1,15,1,-1,-1,0,0,0,0,0,0,0,0,0,0,0,0,-1,1,1,1,-1,1,0,0,0,1,-1,-1,0,3,1,0,Lluís,2021-04-09_15h38.25.331,task,3.2.3,Win32,60,,,,,,,,,,,,,,,,,,,,,,,,,
,,0.247222222,-0.256481481,1,0,0,75.80499983,1,0,16,9,1,15,0,0,0,-1,-1,1,1,-1,1,1,1,1,1,1,-1,-1,1,1,1,-1,-1,-1,1,-1,-1,1,-1,315,7,1,1,Lluís,2021-04-09_15h38.25.331,task,3.2.3,Win32,60,,,,,,,,,,,,,,,,,,,,,,,,,
,,0.006481481,0.357407407,1,0,0,83.20499992,1,0,16,8,1,15,1,-1,-1,1,-1,1,1,1,-1,-1,1,-1,1,1,1,0,0,0,-1,-1,1,-1,1,1,1,1,1,180,7,1,0,Lluís,2021-04-09_15h38.25.331,task,3.2.3,Win32,60,,,,,,,,,,,,,,,,,,,,,,,,,
,,0.25,0.208333333,1,0,0,90.57200003,1,0,16,1,1,15,0,0,0,-1,-1,1,-1,1,-1,0,0,0,0,0,0,1,-1,1,0,0,0,0,0,0,-1,-1,1,45,3,1,1,Lluís,2021-04-09_15h38.25.331,task,3.2.3,Win32,60,,,,,,,,,,,,,,,,,,,,,,,,,
,,-0.387962963,0.001851852,1,0,0,98.95499992,1,0,16,15,1,15,-1,1,-1,0,0,0,1,1,1,-1,-1,1,1,1,-1,1,-1,1,1,-1,-1,-1,1,1,1,1,-1,180,7,1,7,Lluís,2021-04-09_15h38.25.331,task,3.2.3,Win32,60,,,,,,,,,,,,,,,,,,,,,,,,,
,,0.340740741,0.010185185,1,0,0,106.155,1,0,16,6,1,15,-1,-1,1,0,0,0,1,1,1,0,0,0,0,0,0,1,-1,-1,0,0,0,0,0,0,-1,-1,1,0,3,1,6,Lluís,2021-04-09_15h38.25.331,task,3.2.3,Win32,60,,,,,,,,,,,,,,,,,,,,,,,,,
,,0.256481481,-0.177777778,1,0,0,113.3710001,1,0,16,5,1,15,1,1,1,1,1,-1,0,0,0,0,0,0,0,0,0,0,0,0,0,0,0,1,-1,1,1,-1,1,315,3,1,5,Lluís,2021-04-09_15h38.25.331,task,3.2.3,Win32,60,,,,,,,,,,,,,,,,,,,,,,,,,
,,-0.210185185,0.192592593,1,0,0,120.671,1,0,16,2,1,15,1,-1,1,0,0,0,0,0,0,-1,-1,1,0,0,0,0,0,0,-1,1,-1,0,0,0,-1,-1,1,135,3,1,2,Lluís,2021-04-09_15h38.25.331,task,3.2.3,Win32,60,,,,,,,,,,,,,,,,,,,,,,,,,
,,0.273148148,0.192592593,1,0,0,129.721,1,0,16,14,1,15,-1,1,1,-1,1,-1,1,-1,1,0,0,0,1,1,-1,-1,-1,1,1,-1,-1,1,1,1,-1,1,-1,45,7,1,6,Lluís,2021-04-09_15h38.25.331,task,3.2.3,Win32,60,,,,,,,,,,,,,,,,,,,,,,,,,
,,0.380555556,-0.009259259,1,0,0,137.1039999,1,0,16,3,1,15,1,1,1,0,0,0,0,0,0,0,0,0,0,0,0,1,-1,1,-1,1,-1,0,0,0,1,1,1,0,3,1,3,Lluís,2021-04-09_15h38.25.331,task,3.2.3,Win32,60,,,,,,,,,,,,,,,,,,,,,,,,,
,,-0.22962963,0.209259259,1,0,0,145.3039999,1,0,16,12,1,15,-1,1,-1,-1,-1,1,-1,1,1,1,-1,-1,1,1,1,1,-1,1,1,1,-1,0,0,0,1,-1,-1,135,7,1,4,Lluís,2021-04-09_15h38.25.331,task,3.2.3,Win32,60,,,,,,,,,,,,,,,,,,,,,,,,,
,,,,,,,,,,,,,,-1,1,-1,-1,1,1,0,0,0,1,-1,-1,1,-1,1,-1,-1,1,1,1,-1,1,1,1,-1,1,-1,0,7,4,0,Lluís,2021-04-09_15h38.25.331,task,3.2.3,Win32,60,0.338888889,0.009259259,1,0,0,1,0,16,8,1,15,,,,,,,,,,,,,,
,,,,,,,,,,,,,,-1,-1,1,1,-1,1,-1,1,1,-1,1,-1,0,0,0,1,1,-1,1,1,1,1,-1,-1,-1,-1,1,0,7,4,1,Lluís,2021-04-09_15h38.25.331,task,3.2.3,Win32,60,0.352777778,-0.005555556,1,0,0,1,0,16,9,1,15,,,,,,,,,,,,,,
,,,,,,,,,,,,,,1,-1,1,1,1,1,-1,-1,1,0,0,0,0,0,0,0,0,0,0,0,0,0,0,0,1,-1,1,0,3,4,5,Lluís,2021-04-09_15h38.25.331,task,3.2.3,Win32,60,0.388888889,0.001851852,1,0,0,1,0,16,5,1,15,,,,,,,,,,,,,,
,,,,,,,,,,,,,,1,-1,-1,-1,1,-1,-1,-1,1,1,1,-1,0,0,0,-1,1,1,1,-1,1,1,1,1,-1,1,-1,45,7,4,2,Lluís,2021-04-09_15h38.25.331,task,3.2.3,Win32,60,0.264814815,0.207407407,1,0,0,1,0,16,10,1,15,,,,,,,,,,,,,,
,,,,,,,,,,,,,,1,-1,-1,1,-1,1,1,1,-1,-1,1,-1,0,0,0,-1,-1,1,-1,1,1,1,1,1,-1,1,1,270,7,4,4,Lluís,2021-04-09_15h38.25.331,task,3.2.3,Win32,60,-0.005555556,-0.317592593,1,0,0,1,0,16,12,1,15,,,,,,,,,,,,,,
,,,,,,,,,,,,,,-1,-1,1,1,1,-1,-1,1,1,0,0,0,-1,1,-1,1,-1,1,1,1,1,1,-1,-1,-1,-1,1,0,7,4,7,Lluís,2021-04-09_15h38.25.331,task,3.2.3,Win32,60,0.356481481,0.005555556,1,0,0,1,0,16,15,1,15,,,,,,,,,,,,,,
,,,,,,,,,,,,,,1,-1,1,-1,1,1,0,0,0,-1,-1,1,0,0,0,0,0,0,0,0,0,0,0,0,-1,-1,1,135,3,4,2,Lluís,2021-04-09_15h38.25.331,task,3.2.3,Win32,60,-0.212962963,0.198148148,1,0,0,1,0,16,2,1,15,,,,,,,,,,,,,,
,,,,,,,,,,,,,,0,0,0,-1,1,1,1,1,1,-1,-1,1,1,-1,1,-1,1,-1,1,1,-1,1,-1,-1,1,1,-1,270,7,4,6,Lluís,2021-04-09_15h38.25.331,task,3.2.3,Win32,60,-0.003703704,-0.325925926,1,0,0,1,0,16,14,1,15,,,,,,,,,,,,,,
,,,,,,,,,,,,,,-1,-1,1,0,0,0,0,0,0,0,0,0,1,-1,1,0,0,0,0,0,0,1,1,-1,1,-1,1,180,3,4,3,Lluís,2021-04-09_15h38.25.331,task,3.2.3,Win32,60,-0.387037037,0.012037037,1,0,0,1,0,16,3,1,15,,,,,,,,,,,,,,
,,,,,,,,,,,,,,1,1,1,0,0,0,1,1,-1,0,0,0,1,-1,1,0,0,0,0,0,0,0,0,0,1,1,-1,90,3,4,6,Lluís,2021-04-09_15h38.25.331,task,3.2.3,Win32,60,0.407407407,-0.003703704,1,0,0,1,0,16,6,1,15,,,,,,,,,,,,,,
,,,,,,,,,,,,,,-1,-1,1,0,0,0,0,0,0,1,-1,-1,1,-1,1,0,0,0,0,0,0,0,0,0,1,-1,-1,135,3,4,0,Lluís,2021-04-09_15h38.25.331,task,3.2.3,Win32,60,-0.306481481,0.189814815,1,0,0,1,0,16,0,1,15,,,,,,,,,,,,,,
,,,,,,,,,,,,,,0,0,0,1,1,1,0,0,0,0,0,0,1,-1,1,-1,1,1,0,0,0,0,0,0,-1,1,1,225,3,4,7,Lluís,2021-04-09_15h38.25.331,task,3.2.3,Win32,60,-0.308333333,-0.193518519,1,0,0,1,0,16,7,1,15,,,,,,,,,,,,,,
,,,,,,,,,,,,,,0,0,0,0,0,0,1,-1,-1,-1,-1,1,0,0,0,0,0,0,-1,1,-1,0,0,0,-1,-1,1,135,3,4,1,Lluís,2021-04-09_15h38.25.331,task,3.2.3,Win32,60,-0.216666667,0.199074074,1,0,0,1,0,16,1,1,15,,,,,,,,,,,,,,
,,,,,,,,,,,,,,1,-1,-1,-1,1,-1,1,1,1,1,-1,1,-1,1,1,-1,-1,1,0,0,0,1,1,-1,1,-1,-1,0,7,4,5,Lluís,2021-04-09_15h38.25.331,task,3.2.3,Win32,60,0.362962963,0.010185185,1,0,0,1,0,16,13,1,15,,,,,,,,,,,,,,
,,,,,,,,,,,,,,0,0,0,1,1,1,1,-1,-1,0,0,0,0,0,0,0,0,0,1,1,-1,0,0,0,1,1,1,45,3,4,4,Lluís,2021-04-09_15h38.25.331,task,3.2.3,Win32,60,0.27962963,0.257407407,1,0,0,1,0,16,4,1,15,,,,,,,,,,,,,,
,,,,,,,,,,,,,,-1,1,1,1,1,1,0,0,0,-1,-1,1,1,1,-1,1,-1,-1,1,-1,1,-1,1,-1,-1,1,1,0,7,4,3,Lluís,2021-04-09_15h38.25.331,task,3.2.3,Win32,60,0.328703704,-0.006481481,1,0,0,1,0,16,11,1,15,,,,,,,,,,,,,,
,,,,,,,,,,,,,,0,0,0,1,-1,1,0,0,0,0,0,0,1,-1,-1,-1,-1,1,0,0,0,0,0,0,-1,-1,1,225,3,7,2,Lluís,2021-04-09_15h38.25.331,task,3.2.3,Win32,60,,,,,,,,,,,,-0.242592593,-0.237037037,1,0,0,335.6039999,1,0,16,2,1,15,,
,,,,,,,,,,,,,,-1,-1,1,0,0,0,-1,1,1,0,0,0,0,0,0,0,0,0,1,1,-1,0,0,0,-1,1,1,90,3,7,6,Lluís,2021-04-09_15h38.25.331,task,3.2.3,Win32,60,,,,,,,,,,,,0.006481481,0.358333333,1,0,0,348.888,1,0,16,6,1,15,,
,,,,,,,,,,,,,,1,1,1,1,-1,1,-1,1,-1,-1,-1,1,0,0,0,-1,1,1,1,1,-1,1,-1,-1,1,-1,1,45,7,7,6,Lluís,2021-04-09_15h38.25.331,task,3.2.3,Win32,60,,,,,,,,,,,,0.248148148,0.255555556,1,0,0,364.388,1,0,16,14,1,15,,
,,,,,,,,,,,,,,-1,1,-1,0,0,0,0,0,0,1,-1,-1,0,0,0,0,0,0,0,0,0,1,-1,1,1,-1,1,315,3,7,0,Lluís,2021-04-09_15h38.25.331,task,3.2.3,Win32,60,,,,,,,,,,,,0.243518519,-0.199074074,1,0,0,377.954,1,0,16,0,1,15,,
,,,,,,,,,,,,,,1,-1,-1,1,1,1,-1,1,-1,0,0,0,-1,-1,1,1,1,-1,1,-1,1,-1,1,1,1,1,1,45,7,7,1,Lluís,2021-04-09_15h38.25.331,task,3.2.3,Win32,60,,,,,,,,,,,,0.198148148,0.225,1,0,0,392.971,1,0,16,9,1,15,,
,,,,,,,,,,,,,,-1,1,-1,0,0,0,1,-1,1,0,0,0,0,0,0,1,1,-1,0,0,0,0,0,0,-1,1,-1,0,3,7,1,Lluís,2021-04-09_15h38.25.331,task,3.2.3,Win32,60,,,,,,,,,,,,-0.225,-0.241666667,1,0,0,407.8380001,1,0,16,1,1,15,,
,,,,,,,,,,,,,,1,-1,-1,0,0,0,1,1,1,-1,-1,1,-1,1,1,-1,1,-1,1,1,-1,1,-1,1,1,1,1,90,7,7,4,Lluís,2021-04-09_15h38.25.331,task,3.2.3,Win32,60,,,,,,,,,,,,0.000925926,0.310185185,1,0,0,421.6369998,1,0,16,12,1,15,,
,,,,,,,,,,,,,,1,1,-1,1,1,1,1,-1,-1,-1,-1,1,-1,1,1,-1,1,-1,1,-1,1,0,0,0,1,-1,-1,90,7,7,2,Lluís,2021-04-09_15h38.25.331,task,3.2.3,Win32,60,,,,,,,,,,,,-0.001851852,0.350925926,1,0,0,437.0869999,1,0,16,10,1,15,,
,,,,,,,,,,,,,,0,0,0,1,1,-1,0,0,0,0,0,0,1,-1,-1,0,0,0,0,0,0,-1,1,-1,1,1,-1,45,3,7,5,Lluís,2021-04-09_15h38.25.331,task,3.2.3,Win32,60,,,,,,,,,,,,0.262037037,0.176851852,1,0,0,450.553,1,0,16,5,1,15,,
,,,,,,,,,,,,,,0,0,0,-1,-1,1,1,-1,-1,-1,1,1,1,1,1,1,-1,1,1,1,-1,-1,1,-1,1,-1,-1,90,7,7,3,Lluís,2021-04-09_15h38.25.331,task,3.2.3,Win32,60,,,,,,,,,,,,0.001851852,0.333333333,1,0,0,464.454,1,0,16,11,1,15,,
,,,,,,,,,,,,,,-1,-1,1,-1,1,1,0,0,0,1,-1,-1,1,1,-1,1,-1,1,1,1,1,-1,1,-1,1,1,-1,180,7,7,0,Lluís,2021-04-09_15h38.25.331,task,3.2.3,Win32,60,,,,,,,,,,,,-0.340740741,-0.008333333,1,0,0,478.7879999,1,0,16,8,1,15,,
,,,,,,,,,,,,,,0,0,0,0,0,0,0,0,0,-1,1,1,0,0,0,1,1,-1,1,-1,-1,0,0,0,1,1,-1,225,3,7,4,Lluís,2021-04-09_15h38.25.331,task,3.2.3,Win32,60,,,,,,,,,,,,-0.227777778,-0.218518519,1,0,0,492.2869999,1,0,16,4,1,15,,
,,,,,,,,,,,,,,0,0,0,-1,1,1,-1,1,-1,-1,-1,1,1,1,1,1,-1,-1,1,1,-1,1,-1,1,-1,1,-1,90,7,7,5,Lluís,2021-04-09_15h38.25.331,task,3.2.3,Win32,60,,,,,,,,,,,,0.012962963,0.313888889,1,0,0,508.2869999,1,0,16,13,1,15,,
,,,,,,,,,,,,,,0,0,0,0,0,0,1,-1,1,1,1,-1,1,-1,-1,0,0,0,0,0,0,0,0,0,1,1,-1,135,3,7,7,Lluís,2021-04-09_15h38.25.331,task,3.2.3,Win32,60,,,,,,,,,,,,-0.233333333,0.197222222,1,0,0,521.687,1,0,16,7,1,15,,
,,,,,,,,,,,,,,0,0,0,0,0,0,1,-1,-1,1,-1,1,0,0,0,-1,1,1,0,0,0,0,0,0,1,-1,-1,90,3,7,3,Lluís,2021-04-09_15h38.25.331,task,3.2.3,Win32,60,,,,,,,,,,,,0.012037037,0.374074074,1,0,0,535.1029999,1,0,16,3,1,15,,
,,,,,,,,,,,,,,1,1,1,-1,-1,1,1,-1,-1,-1,1,-1,-1,1,1,1,-1,1,1,1,-1,0,0,0,1,-1,1,225,7,7,7,Lluís,2021-04-09_15h38.25.331,task,3.2.3,Win32,60,,,,,,,,,,,,-0.290740741,-0.203703704,1,0,0,552.3869998,1,0,16,15,1,15,,
,,,,,,,,,,,,,,,,,,,,,,,,,,,,,,,,,,,,,,,,,,,,,Lluís,2021-04-09_15h38.25.331,task,3.2.3,Win32,60,,,,,,,,,,,,,,,,,,,,,,,,space,2.368000269
