key_resp_instr.keys,key_resp_instr.rt,mouse.x,mouse.y,mouse.leftButton,mouse.midButton,mouse.rightButton,mouse.time,trials_short.thisRepN,trials_short.thisTrialN,trials_short.thisN,trials_short.thisIndex,trials_short.ran,trials_short.order,Color0_r,Color0_g,Color0_b,Color45_r,Color45_g,Color45_b,Color90_r,Color90_g,Color90_b,Color135_r,Color135_g,Color135_b,Color180_r,Color180_g,Color180_b,Color225_r,Color225_g,Color225_b,Color270_r,Color270_g,Color270_b,Color315_r,Color315_g,Color315_b,Cueresp_r,Cueresp_g,Cueresp_b,target_angle,load,delay,trial,participant,date,expName,psychopyVersion,OS,frameRate,mouse_2.x,mouse_2.y,mouse_2.leftButton,mouse_2.midButton,mouse_2.rightButton,trials_inter.thisRepN,trials_inter.thisTrialN,trials_inter.thisN,trials_inter.thisIndex,trials_inter.ran,trials_inter.order,mouse_3.x,mouse_3.y,mouse_3.leftButton,mouse_3.midButton,mouse_3.rightButton,mouse_3.time,trials_long.thisRepN,trials_long.thisTrialN,trials_long.thisN,trials_long.thisIndex,trials_long.ran,trials_long.order,final_key.keys,final_key.rt
space,6.085999966,-0.268055556,0.209722222,1,0,0,18.63499999,1,0,16,4,1,15,0,0,0,0,0,0,1,-1,1,-1,1,1,1,1,1,0,0,0,0,0,0,0,0,0,-1,1,1,135,3,1,4,Ester,2021-04-09_22h23.06.716,task,3.2.3,Win32,60,,,,,,,,,,,,,,,,,,,,,,,,,
,,-0.223611111,0.231944444,1,0,0,25.98199987,1,0,16,12,1,15,-1,1,-1,-1,-1,1,-1,1,1,1,-1,-1,1,1,1,1,-1,1,1,1,-1,0,0,0,1,-1,-1,135,7,1,4,Ester,2021-04-09_22h23.06.716,task,3.2.3,Win32,60,,,,,,,,,,,,,,,,,,,,,,,,,
,,0.251388889,0.218055556,1,0,0,34.01499987,1,0,16,14,1,15,-1,1,1,-1,1,-1,1,-1,1,0,0,0,1,1,-1,-1,-1,1,1,-1,-1,1,1,1,-1,1,-1,45,7,1,6,Ester,2021-04-09_22h23.06.716,task,3.2.3,Win32,60,,,,,,,,,,,,,,,,,,,,,,,,,
,,0.390277778,0.008333333,1,0,0,41.18599987,1,0,16,0,1,15,1,-1,-1,0,0,0,0,0,0,0,0,0,0,0,0,-1,1,1,1,-1,1,0,0,0,1,-1,-1,0,3,1,0,Ester,2021-04-09_22h23.06.716,task,3.2.3,Win32,60,,,,,,,,,,,,,,,,,,,,,,,,,
,,0.245833333,0.270833333,1,0,0,48.74699998,1,0,16,1,1,15,0,0,0,-1,-1,1,-1,1,-1,0,0,0,0,0,0,1,-1,1,0,0,0,0,0,0,-1,-1,1,45,3,1,1,Ester,2021-04-09_22h23.06.716,task,3.2.3,Win32,60,,,,,,,,,,,,,,,,,,,,,,,,,
,,-0.341666667,0.020833333,1,0,0,56.36099982,1,0,16,11,1,15,1,1,-1,1,1,1,0,0,0,1,-1,-1,-1,1,1,1,-1,1,-1,1,-1,-1,-1,1,-1,1,1,180,7,1,3,Ester,2021-04-09_22h23.06.716,task,3.2.3,Win32,60,,,,,,,,,,,,,,,,,,,,,,,,,
,,0.226388889,-0.25,1,0,0,64.33299994,1,0,16,13,1,15,1,1,1,-1,1,-1,1,1,-1,0,0,0,1,-1,-1,-1,-1,1,-1,1,1,1,-1,1,-1,1,1,270,7,1,5,Ester,2021-04-09_22h23.06.716,task,3.2.3,Win32,60,,,,,,,,,,,,,,,,,,,,,,,,,
,,-0.223611111,0.240277778,1,0,0,71.09299994,1,0,16,2,1,15,1,-1,1,0,0,0,0,0,0,-1,-1,1,0,0,0,0,0,0,-1,1,-1,0,0,0,-1,-1,1,135,3,1,2,Ester,2021-04-09_22h23.06.716,task,3.2.3,Win32,60,,,,,,,,,,,,,,,,,,,,,,,,,
,,-0.009722222,0.380555556,1,0,0,78.69299984,1,0,16,7,1,15,0,0,0,0,0,0,-1,-1,1,1,1,-1,0,0,0,1,-1,-1,0,0,0,0,0,0,-1,-1,1,90,3,1,7,Ester,2021-04-09_22h23.06.716,task,3.2.3,Win32,60,,,,,,,,,,,,,,,,,,,,,,,,,
,,0.273611111,-0.179166667,1,0,0,86.84099984,1,0,16,5,1,15,1,1,1,1,1,-1,0,0,0,0,0,0,0,0,0,0,0,0,0,0,0,1,-1,1,1,-1,1,315,3,1,5,Ester,2021-04-09_22h23.06.716,task,3.2.3,Win32,60,,,,,,,,,,,,,,,,,,,,,,,,,
,,-0.401388889,0.009722222,1,0,0,94.99099994,1,0,16,10,1,15,0,0,0,-1,1,-1,-1,-1,1,1,1,1,1,-1,-1,1,1,-1,-1,1,1,1,-1,1,1,-1,-1,180,7,1,2,Ester,2021-04-09_22h23.06.716,task,3.2.3,Win32,60,,,,,,,,,,,,,,,,,,,,,,,,,
,,0.390277778,-0.006944444,1,0,0,101.7619998,1,0,16,3,1,15,1,1,1,0,0,0,0,0,0,0,0,0,0,0,0,1,-1,1,-1,1,-1,0,0,0,1,1,1,0,3,1,3,Ester,2021-04-09_22h23.06.716,task,3.2.3,Win32,60,,,,,,,,,,,,,,,,,,,,,,,,,
,,0.402777778,0.009722222,1,0,0,109.8899999,1,0,16,6,1,15,-1,-1,1,0,0,0,1,1,1,0,0,0,0,0,0,1,-1,-1,0,0,0,0,0,0,-1,-1,1,0,3,1,6,Ester,2021-04-09_22h23.06.716,task,3.2.3,Win32,60,,,,,,,,,,,,,,,,,,,,,,,,,
,,-0.370833333,0.013888889,1,0,0,117.7759998,1,0,16,8,1,15,1,-1,-1,1,-1,1,1,1,-1,-1,1,-1,1,1,1,0,0,0,-1,-1,1,-1,1,1,1,1,1,180,7,1,0,Ester,2021-04-09_22h23.06.716,task,3.2.3,Win32,60,,,,,,,,,,,,,,,,,,,,,,,,,
,,0.218055556,-0.226388889,1,0,0,126.51,1,0,16,9,1,15,0,0,0,-1,-1,1,1,-1,1,1,1,1,1,1,-1,-1,1,1,1,-1,-1,-1,1,-1,-1,1,-1,315,7,1,1,Ester,2021-04-09_22h23.06.716,task,3.2.3,Win32,60,,,,,,,,,,,,,,,,,,,,,,,,,
,,-0.284722222,-0.159722222,1,0,0,134.974,1,0,16,15,1,15,-1,1,-1,0,0,0,1,1,1,-1,-1,1,1,1,-1,1,-1,1,1,-1,-1,-1,1,1,1,1,-1,180,7,1,7,Ester,2021-04-09_22h23.06.716,task,3.2.3,Win32,60,,,,,,,,,,,,,,,,,,,,,,,,,
,,,,,,,,,,,,,,0,0,0,1,1,1,0,0,0,0,0,0,1,-1,1,-1,1,1,0,0,0,0,0,0,-1,1,1,225,3,4,7,Ester,2021-04-09_22h23.06.716,task,3.2.3,Win32,60,-0.234722222,-0.265277778,1,0,0,1,0,16,7,1,15,,,,,,,,,,,,,,
,,,,,,,,,,,,,,0,0,0,-1,1,1,1,1,1,-1,-1,1,1,-1,1,-1,1,-1,1,1,-1,1,-1,-1,1,1,-1,270,7,4,6,Ester,2021-04-09_22h23.06.716,task,3.2.3,Win32,60,-0.240277778,0.155555556,1,0,0,1,0,16,14,1,15,,,,,,,,,,,,,,
,,,,,,,,,,,,,,1,-1,-1,-1,1,-1,-1,-1,1,1,1,-1,0,0,0,-1,1,1,1,-1,1,1,1,1,-1,1,-1,45,7,4,2,Ester,2021-04-09_22h23.06.716,task,3.2.3,Win32,60,0.234722222,0.268055556,1,0,0,1,0,16,10,1,15,,,,,,,,,,,,,,
,,,,,,,,,,,,,,-1,1,1,1,1,1,0,0,0,-1,-1,1,1,1,-1,1,-1,-1,1,-1,1,-1,1,-1,-1,1,1,0,7,4,3,Ester,2021-04-09_22h23.06.716,task,3.2.3,Win32,60,0.343055556,-0.094444444,1,0,0,1,0,16,11,1,15,,,,,,,,,,,,,,
,,,,,,,,,,,,,,-1,-1,1,1,1,-1,-1,1,1,0,0,0,-1,1,-1,1,-1,1,1,1,1,1,-1,-1,-1,-1,1,0,7,4,7,Ester,2021-04-09_22h23.06.716,task,3.2.3,Win32,60,0.380555556,0.018055556,1,0,0,1,0,16,15,1,15,,,,,,,,,,,,,,
,,,,,,,,,,,,,,1,-1,1,-1,1,1,0,0,0,-1,-1,1,0,0,0,0,0,0,0,0,0,0,0,0,-1,-1,1,135,3,4,2,Ester,2021-04-09_22h23.06.716,task,3.2.3,Win32,60,-0.2875,0.2125,1,0,0,1,0,16,2,1,15,,,,,,,,,,,,,,
,,,,,,,,,,,,,,-1,-1,1,1,-1,1,-1,1,1,-1,1,-1,0,0,0,1,1,-1,1,1,1,1,-1,-1,-1,-1,1,0,7,4,1,Ester,2021-04-09_22h23.06.716,task,3.2.3,Win32,60,0.351388889,0.0125,1,0,0,1,0,16,9,1,15,,,,,,,,,,,,,,
,,,,,,,,,,,,,,1,-1,-1,-1,1,-1,1,1,1,1,-1,1,-1,1,1,-1,-1,1,0,0,0,1,1,-1,1,-1,-1,0,7,4,5,Ester,2021-04-09_22h23.06.716,task,3.2.3,Win32,60,0.401388889,0.004166667,1,0,0,1,0,16,13,1,15,,,,,,,,,,,,,,
,,,,,,,,,,,,,,1,-1,1,1,1,1,-1,-1,1,0,0,0,0,0,0,0,0,0,0,0,0,0,0,0,1,-1,1,0,3,4,5,Ester,2021-04-09_22h23.06.716,task,3.2.3,Win32,60,0.380555556,0.001388889,1,0,0,1,0,16,5,1,15,,,,,,,,,,,,,,
,,,,,,,,,,,,,,1,1,1,0,0,0,1,1,-1,0,0,0,1,-1,1,0,0,0,0,0,0,0,0,0,1,1,-1,90,3,4,6,Ester,2021-04-09_22h23.06.716,task,3.2.3,Win32,60,0.002777778,0.401388889,1,0,0,1,0,16,6,1,15,,,,,,,,,,,,,,
,,,,,,,,,,,,,,-1,1,-1,-1,1,1,0,0,0,1,-1,-1,1,-1,1,-1,-1,1,1,1,-1,1,1,1,-1,1,-1,0,7,4,0,Ester,2021-04-09_22h23.06.716,task,3.2.3,Win32,60,0.379166667,-0.001388889,1,0,0,1,0,16,8,1,15,,,,,,,,,,,,,,
,,,,,,,,,,,,,,0,0,0,1,1,1,1,-1,-1,0,0,0,0,0,0,0,0,0,1,1,-1,0,0,0,1,1,1,45,3,4,4,Ester,2021-04-09_22h23.06.716,task,3.2.3,Win32,60,0.252777778,0.256944444,1,0,0,1,0,16,4,1,15,,,,,,,,,,,,,,
,,,,,,,,,,,,,,1,-1,-1,1,-1,1,1,1,-1,-1,1,-1,0,0,0,-1,-1,1,-1,1,1,1,1,1,-1,1,1,270,7,4,4,Ester,2021-04-09_22h23.06.716,task,3.2.3,Win32,60,-0.006944444,-0.3875,1,0,0,1,0,16,12,1,15,,,,,,,,,,,,,,
,,,,,,,,,,,,,,-1,-1,1,0,0,0,0,0,0,1,-1,-1,1,-1,1,0,0,0,0,0,0,0,0,0,1,-1,-1,135,3,4,0,Ester,2021-04-09_22h23.06.716,task,3.2.3,Win32,60,-0.25,0.248611111,1,0,0,1,0,16,0,1,15,,,,,,,,,,,,,,
,,,,,,,,,,,,,,0,0,0,0,0,0,1,-1,-1,-1,-1,1,0,0,0,0,0,0,-1,1,-1,0,0,0,-1,-1,1,135,3,4,1,Ester,2021-04-09_22h23.06.716,task,3.2.3,Win32,60,-0.254166667,0.258333333,1,0,0,1,0,16,1,1,15,,,,,,,,,,,,,,
,,,,,,,,,,,,,,-1,-1,1,0,0,0,0,0,0,0,0,0,1,-1,1,0,0,0,0,0,0,1,1,-1,1,-1,1,180,3,4,3,Ester,2021-04-09_22h23.06.716,task,3.2.3,Win32,60,-0.411111111,0.009722222,1,0,0,1,0,16,3,1,15,,,,,,,,,,,,,,
,,,,,,,,,,,,,,-1,1,-1,0,0,0,1,-1,1,0,0,0,0,0,0,1,1,-1,0,0,0,0,0,0,-1,1,-1,0,3,7,1,Ester,2021-04-09_22h23.06.716,task,3.2.3,Win32,60,,,,,,,,,,,,0.404166667,0.045833333,1,0,0,326.3479998,1,0,16,1,1,15,,
,,,,,,,,,,,,,,-1,-1,1,-1,1,1,0,0,0,1,-1,-1,1,1,-1,1,-1,1,1,1,1,-1,1,-1,1,1,-1,180,7,7,0,Ester,2021-04-09_22h23.06.716,task,3.2.3,Win32,60,,,,,,,,,,,,0.004166667,-0.4,1,0,0,341.313,1,0,16,8,1,15,,
,,,,,,,,,,,,,,0,0,0,0,0,0,1,-1,-1,1,-1,1,0,0,0,-1,1,1,0,0,0,0,0,0,1,-1,-1,90,3,7,3,Ester,2021-04-09_22h23.06.716,task,3.2.3,Win32,60,,,,,,,,,,,,0.001388889,0.419444444,1,0,0,355.0919998,1,0,16,3,1,15,,
,,,,,,,,,,,,,,0,0,0,1,-1,1,0,0,0,0,0,0,1,-1,-1,-1,-1,1,0,0,0,0,0,0,-1,-1,1,225,3,7,2,Ester,2021-04-09_22h23.06.716,task,3.2.3,Win32,60,,,,,,,,,,,,-0.2375,-0.255555556,1,0,0,367.7719998,1,0,16,2,1,15,,
,,,,,,,,,,,,,,0,0,0,1,1,-1,0,0,0,0,0,0,1,-1,-1,0,0,0,0,0,0,-1,1,-1,1,1,-1,45,3,7,5,Ester,2021-04-09_22h23.06.716,task,3.2.3,Win32,60,,,,,,,,,,,,0.268055556,0.238888889,1,0,0,381.7409999,1,0,16,5,1,15,,
,,,,,,,,,,,,,,1,-1,-1,1,1,1,-1,1,-1,0,0,0,-1,-1,1,1,1,-1,1,-1,1,-1,1,1,1,1,1,45,7,7,1,Ester,2021-04-09_22h23.06.716,task,3.2.3,Win32,60,,,,,,,,,,,,0.259722222,0.240277778,1,0,0,395.5349998,1,0,16,9,1,15,,
,,,,,,,,,,,,,,0,0,0,0,0,0,1,-1,1,1,1,-1,1,-1,-1,0,0,0,0,0,0,0,0,0,1,1,-1,135,3,7,7,Ester,2021-04-09_22h23.06.716,task,3.2.3,Win32,60,,,,,,,,,,,,-0.255555556,0.256944444,1,0,0,409.023,1,0,16,7,1,15,,
,,,,,,,,,,,,,,1,1,-1,1,1,1,1,-1,-1,-1,-1,1,-1,1,1,-1,1,-1,1,-1,1,0,0,0,1,-1,-1,90,7,7,2,Ester,2021-04-09_22h23.06.716,task,3.2.3,Win32,60,,,,,,,,,,,,-0.006944444,0.422222222,1,0,0,424.3549998,1,0,16,10,1,15,,
,,,,,,,,,,,,,,0,0,0,-1,1,1,-1,1,-1,-1,-1,1,1,1,1,1,-1,-1,1,1,-1,1,-1,1,-1,1,-1,90,7,7,5,Ester,2021-04-09_22h23.06.716,task,3.2.3,Win32,60,,,,,,,,,,,,-0.001388889,0.4125,1,0,0,439.339,1,0,16,13,1,15,,
,,,,,,,,,,,,,,0,0,0,-1,-1,1,1,-1,-1,-1,1,1,1,1,1,1,-1,1,1,1,-1,-1,1,-1,1,-1,-1,90,7,7,3,Ester,2021-04-09_22h23.06.716,task,3.2.3,Win32,60,,,,,,,,,,,,-0.280555556,-0.191666667,1,0,0,453.5829999,1,0,16,11,1,15,,
,,,,,,,,,,,,,,0,0,0,0,0,0,0,0,0,-1,1,1,0,0,0,1,1,-1,1,-1,-1,0,0,0,1,1,-1,225,3,7,4,Ester,2021-04-09_22h23.06.716,task,3.2.3,Win32,60,,,,,,,,,,,,-0.248611111,-0.243055556,1,0,0,466.477,1,0,16,4,1,15,,
,,,,,,,,,,,,,,-1,1,-1,0,0,0,0,0,0,1,-1,-1,0,0,0,0,0,0,0,0,0,1,-1,1,1,-1,1,315,3,7,0,Ester,2021-04-09_22h23.06.716,task,3.2.3,Win32,60,,,,,,,,,,,,0.258333333,-0.245833333,1,0,0,479.8609998,1,0,16,0,1,15,,
,,,,,,,,,,,,,,1,-1,-1,0,0,0,1,1,1,-1,-1,1,-1,1,1,-1,1,-1,1,1,-1,1,-1,1,1,1,1,90,7,7,4,Ester,2021-04-09_22h23.06.716,task,3.2.3,Win32,60,,,,,,,,,,,,0.006944444,0.402777778,1,0,0,494.6729999,1,0,16,12,1,15,,
,,,,,,,,,,,,,,1,1,1,1,-1,1,-1,1,-1,-1,-1,1,0,0,0,-1,1,1,1,1,-1,1,-1,-1,1,-1,1,45,7,7,6,Ester,2021-04-09_22h23.06.716,task,3.2.3,Win32,60,,,,,,,,,,,,0.281944444,0.216666667,1,0,0,514.135,1,0,16,14,1,15,,
,,,,,,,,,,,,,,-1,-1,1,0,0,0,-1,1,1,0,0,0,0,0,0,0,0,0,1,1,-1,0,0,0,-1,1,1,90,3,7,6,Ester,2021-04-09_22h23.06.716,task,3.2.3,Win32,60,,,,,,,,,,,,-0.001388889,0.429166667,1,0,0,528.6869998,1,0,16,6,1,15,,
,,,,,,,,,,,,,,1,1,1,-1,-1,1,1,-1,-1,-1,1,-1,-1,1,1,1,-1,1,1,1,-1,0,0,0,1,-1,1,225,7,7,7,Ester,2021-04-09_22h23.06.716,task,3.2.3,Win32,60,,,,,,,,,,,,-0.195833333,-0.247222222,1,0,0,542.55,1,0,16,15,1,15,,
,,,,,,,,,,,,,,,,,,,,,,,,,,,,,,,,,,,,,,,,,,,,,Ester,2021-04-09_22h23.06.716,task,3.2.3,Win32,60,,,,,,,,,,,,,,,,,,,,,,,,space,0.524999857
