key_resp_instr.keys,key_resp_instr.rt,mouse.x,mouse.y,mouse.leftButton,mouse.midButton,mouse.rightButton,mouse.time,trials_short.thisRepN,trials_short.thisTrialN,trials_short.thisN,trials_short.thisIndex,trials_short.ran,trials_short.order,Color0_r,Color0_g,Color0_b,Color45_r,Color45_g,Color45_b,Color90_r,Color90_g,Color90_b,Color135_r,Color135_g,Color135_b,Color180_r,Color180_g,Color180_b,Color225_r,Color225_g,Color225_b,Color270_r,Color270_g,Color270_b,Color315_r,Color315_g,Color315_b,Cueresp_r,Cueresp_g,Cueresp_b,target_angle,load,delay,trial,participant,date,expName,psychopyVersion,OS,frameRate,mouse_2.x,mouse_2.y,mouse_2.leftButton,mouse_2.midButton,mouse_2.rightButton,trials_inter.thisRepN,trials_inter.thisTrialN,trials_inter.thisN,trials_inter.thisIndex,trials_inter.ran,trials_inter.order,mouse_3.x,mouse_3.y,mouse_3.leftButton,mouse_3.midButton,mouse_3.rightButton,mouse_3.time,trials_long.thisRepN,trials_long.thisTrialN,trials_long.thisN,trials_long.thisIndex,trials_long.ran,trials_long.order,final_key.keys,final_key.rt
space,24.23399973,-0.016103719,0.358320228,1,0,0,37.69199991,1,0,16,7,1,15,0,0,0,0,0,0,-1,-1,1,1,1,-1,0,0,0,1,-1,-1,0,0,0,0,0,0,-1,-1,1,90,3,1,7,LauraB,2021-04-10_12h23.36.697,task,3.2.3,MacIntel,60,,,,,,,,,,,,,,,,,,,,,,,,,
,,0.359775933,0.035418023,1,0,0,47.42400002,1,0,16,3,1,15,1,1,1,0,0,0,0,0,0,0,0,0,0,0,0,1,-1,1,-1,1,-1,0,0,0,1,1,1,0,3,1,3,LauraB,2021-04-10_12h23.36.697,task,3.2.3,MacIntel,60,,,,,,,,,,,,,,,,,,,,,,,,,
,,0.381169569,-0.001484578,1,0,0,56.49000001,1,0,16,0,1,15,1,-1,-1,0,0,0,0,0,0,0,0,0,0,0,0,-1,1,1,1,-1,1,0,0,0,1,-1,-1,0,3,1,0,LauraB,2021-04-10_12h23.36.697,task,3.2.3,MacIntel,60,,,,,,,,,,,,,,,,,,,,,,,,,
,,0.203391927,-0.182790188,1,0,0,64.47399998,1,0,16,11,1,15,1,1,-1,1,1,1,0,0,0,1,-1,-1,-1,1,1,1,-1,1,-1,1,-1,-1,-1,1,-1,1,1,180,7,1,3,LauraB,2021-04-10_12h23.36.697,task,3.2.3,MacIntel,60,,,,,,,,,,,,,,,,,,,,,,,,,
,,0.254613105,0.24852478,1,0,0,72.55699992,1,0,16,1,1,15,0,0,0,-1,-1,1,-1,1,-1,0,0,0,0,0,0,1,-1,1,0,0,0,0,0,0,-1,-1,1,45,3,1,1,LauraB,2021-04-10_12h23.36.697,task,3.2.3,MacIntel,60,,,,,,,,,,,,,,,,,,,,,,,,,
,,-0.217300822,-0.121638997,1,0,0,79.94099998,1,0,16,10,1,15,0,0,0,-1,1,-1,-1,-1,1,1,1,1,1,-1,-1,1,1,-1,-1,1,1,1,-1,1,1,-1,-1,180,7,1,2,LauraB,2021-04-10_12h23.36.697,task,3.2.3,MacIntel,60,,,,,,,,,,,,,,,,,,,,,,,,,
,,0.268523899,0.071440362,1,0,0,87.2559998,1,0,16,14,1,15,-1,1,1,-1,1,-1,1,-1,1,0,0,0,1,1,-1,-1,-1,1,1,-1,-1,1,1,1,-1,1,-1,45,7,1,6,LauraB,2021-04-10_12h23.36.697,task,3.2.3,MacIntel,60,,,,,,,,,,,,,,,,,,,,,,,,,
,,0.352376031,-0.017552863,1,0,0,95.65699983,1,0,16,6,1,15,-1,-1,1,0,0,0,1,1,1,0,0,0,0,0,0,1,-1,-1,0,0,0,0,0,0,-1,-1,1,0,3,1,6,LauraB,2021-04-10_12h23.36.697,task,3.2.3,MacIntel,60,,,,,,,,,,,,,,,,,,,,,,,,,
,,-0.243416273,0.200330065,1,0,0,103.3399999,1,0,16,2,1,15,1,-1,1,0,0,0,0,0,0,-1,-1,1,0,0,0,0,0,0,-1,1,-1,0,0,0,-1,-1,1,135,3,1,2,LauraB,2021-04-10_12h23.36.697,task,3.2.3,MacIntel,60,,,,,,,,,,,,,,,,,,,,,,,,,
,,-0.208833483,0.201798842,1,0,0,109.8899999,1,0,16,4,1,15,0,0,0,0,0,0,1,-1,1,-1,1,1,1,1,1,0,0,0,0,0,0,0,0,0,-1,1,1,135,3,1,4,LauraB,2021-04-10_12h23.36.697,task,3.2.3,MacIntel,60,,,,,,,,,,,,,,,,,,,,,,,,,
,,-0.31363739,0.104438341,1,0,0,117.74,1,0,16,8,1,15,1,-1,-1,1,-1,1,1,1,-1,-1,1,-1,1,1,1,0,0,0,-1,-1,1,-1,1,1,1,1,1,180,7,1,0,LauraB,2021-04-10_12h23.36.697,task,3.2.3,MacIntel,60,,,,,,,,,,,,,,,,,,,,,,,,,
,,-0.366537238,0.029661119,1,0,0,125.1389999,1,0,16,15,1,15,-1,1,-1,0,0,0,1,1,1,-1,-1,1,1,1,-1,1,-1,1,1,-1,-1,-1,1,1,1,1,-1,180,7,1,7,LauraB,2021-04-10_12h23.36.697,task,3.2.3,MacIntel,60,,,,,,,,,,,,,,,,,,,,,,,,,
,,0.289168498,-0.150950453,1,0,0,133.7889998,1,0,16,5,1,15,1,1,1,1,1,-1,0,0,0,0,0,0,0,0,0,0,0,0,0,0,0,1,-1,1,1,-1,1,315,3,1,5,LauraB,2021-04-10_12h23.36.697,task,3.2.3,MacIntel,60,,,,,,,,,,,,,,,,,,,,,,,,,
,,0.233129679,0.155453356,1,0,0,141.6899998,1,0,16,13,1,15,1,1,1,-1,1,-1,1,1,-1,0,0,0,1,-1,-1,-1,-1,1,-1,1,1,1,-1,1,-1,1,1,270,7,1,5,LauraB,2021-04-10_12h23.36.697,task,3.2.3,MacIntel,60,,,,,,,,,,,,,,,,,,,,,,,,,
,,0.167171495,-0.097703111,1,0,0,148.823,1,0,16,9,1,15,0,0,0,-1,-1,1,1,-1,1,1,1,1,1,1,-1,-1,1,1,1,-1,-1,-1,1,-1,-1,1,-1,315,7,1,1,LauraB,2021-04-10_12h23.36.697,task,3.2.3,MacIntel,60,,,,,,,,,,,,,,,,,,,,,,,,,
,,-0.234928419,0.215465257,1,0,0,156.0389998,1,0,16,12,1,15,-1,1,-1,-1,-1,1,-1,1,1,1,-1,-1,1,1,1,1,-1,1,1,1,-1,0,0,0,1,-1,-1,135,7,1,4,LauraB,2021-04-10_12h23.36.697,task,3.2.3,MacIntel,60,,,,,,,,,,,,,,,,,,,,,,,,,
,,,,,,,,,,,,,,0,0,0,1,1,1,1,-1,-1,0,0,0,0,0,0,0,0,0,1,1,-1,0,0,0,1,1,1,45,3,4,4,LauraB,2021-04-10_12h23.36.697,task,3.2.3,MacIntel,60,0.223574219,0.236223704,1,0,0,1,0,16,4,1,15,,,,,,,,,,,,,,
,,,,,,,,,,,,,,0,0,0,0,0,0,1,-1,-1,-1,-1,1,0,0,0,0,0,0,-1,1,-1,0,0,0,-1,-1,1,135,3,4,1,LauraB,2021-04-10_12h23.36.697,task,3.2.3,MacIntel,60,-0.240098165,0.282577209,1,0,0,1,0,16,1,1,15,,,,,,,,,,,,,,
,,,,,,,,,,,,,,-1,-1,1,1,-1,1,-1,1,1,-1,1,-1,0,0,0,1,1,-1,1,1,1,1,-1,-1,-1,-1,1,0,7,4,1,LauraB,2021-04-10_12h23.36.697,task,3.2.3,MacIntel,60,0.374876031,0.045516629,1,0,0,1,0,16,9,1,15,,,,,,,,,,,,,,
,,,,,,,,,,,,,,0,0,0,-1,1,1,1,1,1,-1,-1,1,1,-1,1,-1,1,-1,1,1,-1,1,-1,-1,1,1,-1,270,7,4,6,LauraB,2021-04-10_12h23.36.697,task,3.2.3,MacIntel,60,0.003796861,-0.262777846,1,0,0,1,0,16,14,1,15,,,,,,,,,,,,,,
,,,,,,,,,,,,,,1,-1,1,-1,1,1,0,0,0,-1,-1,1,0,0,0,0,0,0,0,0,0,0,0,0,-1,-1,1,135,3,4,2,LauraB,2021-04-10_12h23.36.697,task,3.2.3,MacIntel,60,-0.254759962,0.200714654,1,0,0,1,0,16,2,1,15,,,,,,,,,,,,,,
,,,,,,,,,,,,,,-1,-1,1,0,0,0,0,0,0,1,-1,-1,1,-1,1,0,0,0,0,0,0,0,0,0,1,-1,-1,135,3,4,0,LauraB,2021-04-10_12h23.36.697,task,3.2.3,MacIntel,60,-0.24888838,0.21907525,1,0,0,1,0,16,0,1,15,,,,,,,,,,,,,,
,,,,,,,,,,,,,,0,0,0,1,1,1,0,0,0,0,0,0,1,-1,1,-1,1,1,0,0,0,0,0,0,-1,1,1,225,3,4,7,LauraB,2021-04-10_12h23.36.697,task,3.2.3,MacIntel,60,-0.32345954,-0.190774129,1,0,0,1,0,16,7,1,15,,,,,,,,,,,,,,
,,,,,,,,,,,,,,1,-1,-1,-1,1,-1,-1,-1,1,1,1,-1,0,0,0,-1,1,1,1,-1,1,1,1,1,-1,1,-1,45,7,4,2,LauraB,2021-04-10_12h23.36.697,task,3.2.3,MacIntel,60,-0.023915541,-0.226792399,1,0,0,1,0,16,10,1,15,,,,,,,,,,,,,,
,,,,,,,,,,,,,,1,-1,-1,-1,1,-1,1,1,1,1,-1,1,-1,1,1,-1,-1,1,0,0,0,1,1,-1,1,-1,-1,0,7,4,5,LauraB,2021-04-10_12h23.36.697,task,3.2.3,MacIntel,60,0.31504815,-0.0195951,1,0,0,1,0,16,13,1,15,,,,,,,,,,,,,,
,,,,,,,,,,,,,,1,1,1,0,0,0,1,1,-1,0,0,0,1,-1,1,0,0,0,0,0,0,0,0,0,1,1,-1,90,3,4,6,LauraB,2021-04-10_12h23.36.697,task,3.2.3,MacIntel,60,-0.005205078,0.339473504,1,0,0,1,0,16,6,1,15,,,,,,,,,,,,,,
,,,,,,,,,,,,,,-1,-1,1,1,1,-1,-1,1,1,0,0,0,-1,1,-1,1,-1,1,1,1,1,1,-1,-1,-1,-1,1,0,7,4,7,LauraB,2021-04-10_12h23.36.697,task,3.2.3,MacIntel,60,0.324020454,-0.015705363,1,0,0,1,0,16,15,1,15,,,,,,,,,,,,,,
,,,,,,,,,,,,,,-1,-1,1,0,0,0,0,0,0,0,0,0,1,-1,1,0,0,0,0,0,0,1,1,-1,1,-1,1,180,3,4,3,LauraB,2021-04-10_12h23.36.697,task,3.2.3,MacIntel,60,-0.384493951,0.000167508,1,0,0,1,0,16,3,1,15,,,,,,,,,,,,,,
,,,,,,,,,,,,,,-1,1,-1,-1,1,1,0,0,0,1,-1,-1,1,-1,1,-1,-1,1,1,1,-1,1,1,1,-1,1,-1,0,7,4,0,LauraB,2021-04-10_12h23.36.697,task,3.2.3,MacIntel,60,0.360928141,0.024075589,1,0,0,1,0,16,8,1,15,,,,,,,,,,,,,,
,,,,,,,,,,,,,,1,-1,1,1,1,1,-1,-1,1,0,0,0,0,0,0,0,0,0,0,0,0,0,0,0,1,-1,1,0,3,4,5,LauraB,2021-04-10_12h23.36.697,task,3.2.3,MacIntel,60,0.38242391,-0.002836745,1,0,0,1,0,16,5,1,15,,,,,,,,,,,,,,
,,,,,,,,,,,,,,1,-1,-1,1,-1,1,1,1,-1,-1,1,-1,0,0,0,-1,-1,1,-1,1,1,1,1,1,-1,1,1,270,7,4,4,LauraB,2021-04-10_12h23.36.697,task,3.2.3,MacIntel,60,-0.093301459,0.231818288,1,0,0,1,0,16,12,1,15,,,,,,,,,,,,,,
,,,,,,,,,,,,,,-1,1,1,1,1,1,0,0,0,-1,-1,1,1,1,-1,1,-1,-1,1,-1,1,-1,1,-1,-1,1,1,0,7,4,3,LauraB,2021-04-10_12h23.36.697,task,3.2.3,MacIntel,60,0.348618707,0.050913798,1,0,0,1,0,16,11,1,15,,,,,,,,,,,,,,
,,,,,,,,,,,,,,0,0,0,1,-1,1,0,0,0,0,0,0,1,-1,-1,-1,-1,1,0,0,0,0,0,0,-1,-1,1,225,3,7,2,LauraB,2021-04-10_12h23.36.697,task,3.2.3,MacIntel,60,,,,,,,,,,,,-0.244101868,-0.199284261,1,0,0,342.888,1,0,16,2,1,15,,
,,,,,,,,,,,,,,1,1,1,-1,-1,1,1,-1,-1,-1,1,-1,-1,1,1,1,-1,1,1,1,-1,0,0,0,1,-1,1,225,7,7,7,LauraB,2021-04-10_12h23.36.697,task,3.2.3,MacIntel,60,,,,,,,,,,,,-0.244101868,-0.199284261,1,0,0,356.155,1,0,16,15,1,15,,
,,,,,,,,,,,,,,0,0,0,0,0,0,0,0,0,-1,1,1,0,0,0,1,1,-1,1,-1,-1,0,0,0,1,1,-1,225,3,7,4,LauraB,2021-04-10_12h23.36.697,task,3.2.3,MacIntel,60,,,,,,,,,,,,-0.225011597,-0.231248779,1,0,0,370.605,1,0,16,4,1,15,,
,,,,,,,,,,,,,,1,1,-1,1,1,1,1,-1,-1,-1,-1,1,-1,1,1,-1,1,-1,1,-1,1,0,0,0,1,-1,-1,90,7,7,2,LauraB,2021-04-10_12h23.36.697,task,3.2.3,MacIntel,60,,,,,,,,,,,,-0.171929796,0.317361399,1,0,0,386.605,1,0,16,10,1,15,,
,,,,,,,,,,,,,,-1,-1,1,-1,1,1,0,0,0,1,-1,-1,1,1,-1,1,-1,1,1,1,1,-1,1,-1,1,1,-1,180,7,7,0,LauraB,2021-04-10_12h23.36.697,task,3.2.3,MacIntel,60,,,,,,,,,,,,-0.210347019,-0.183768378,1,0,0,400.7709999,1,0,16,8,1,15,,
,,,,,,,,,,,,,,1,-1,-1,0,0,0,1,1,1,-1,-1,1,-1,1,1,-1,1,-1,1,1,-1,1,-1,1,1,1,1,90,7,7,4,LauraB,2021-04-10_12h23.36.697,task,3.2.3,MacIntel,60,,,,,,,,,,,,-0.082450697,0.354224175,1,0,0,414.1209998,1,0,16,12,1,15,,
,,,,,,,,,,,,,,0,0,0,0,0,0,1,-1,-1,1,-1,1,0,0,0,-1,1,1,0,0,0,0,0,0,1,-1,-1,90,3,7,3,LauraB,2021-04-10_12h23.36.697,task,3.2.3,MacIntel,60,,,,,,,,,,,,-0.020477702,0.386427443,1,0,0,427.171,1,0,16,3,1,15,,
,,,,,,,,,,,,,,0,0,0,-1,-1,1,1,-1,-1,-1,1,1,1,1,1,1,-1,1,1,1,-1,-1,1,-1,1,-1,-1,90,7,7,3,LauraB,2021-04-10_12h23.36.697,task,3.2.3,MacIntel,60,,,,,,,,,,,,-0.020477702,0.386427443,1,0,0,446.1039999,1,0,16,11,1,15,,
,,,,,,,,,,,,,,0,0,0,0,0,0,1,-1,1,1,1,-1,1,-1,-1,0,0,0,0,0,0,0,0,0,1,1,-1,135,3,7,7,LauraB,2021-04-10_12h23.36.697,task,3.2.3,MacIntel,60,,,,,,,,,,,,-0.271860962,0.282688819,1,0,0,458.5369999,1,0,16,7,1,15,,
,,,,,,,,,,,,,,1,1,1,1,-1,1,-1,1,-1,-1,-1,1,0,0,0,-1,1,1,1,1,-1,1,-1,-1,1,-1,1,45,7,7,6,LauraB,2021-04-10_12h23.36.697,task,3.2.3,MacIntel,60,,,,,,,,,,,,0.234702759,-0.178127848,1,0,0,473.7539999,1,0,16,14,1,15,,
,,,,,,,,,,,,,,-1,-1,1,0,0,0,-1,1,1,0,0,0,0,0,0,0,0,0,1,1,-1,0,0,0,-1,1,1,90,3,7,6,LauraB,2021-04-10_12h23.36.697,task,3.2.3,MacIntel,60,,,,,,,,,,,,0.007965563,0.289510803,1,0,0,487.4039998,1,0,16,6,1,15,,
,,,,,,,,,,,,,,0,0,0,1,1,-1,0,0,0,0,0,0,1,-1,-1,0,0,0,0,0,0,-1,1,-1,1,1,-1,45,3,7,5,LauraB,2021-04-10_12h23.36.697,task,3.2.3,MacIntel,60,,,,,,,,,,,,0.236747233,0.099253811,1,0,0,501.737,1,0,16,5,1,15,,
,,,,,,,,,,,,,,1,-1,-1,1,1,1,-1,1,-1,0,0,0,-1,-1,1,1,1,-1,1,-1,1,-1,1,1,1,1,1,45,7,7,1,LauraB,2021-04-10_12h23.36.697,task,3.2.3,MacIntel,60,,,,,,,,,,,,0.240261909,0.239655338,1,0,0,515.503,1,0,16,9,1,15,,
,,,,,,,,,,,,,,0,0,0,-1,1,1,-1,1,-1,-1,-1,1,1,1,1,1,-1,-1,1,1,-1,1,-1,1,-1,1,-1,90,7,7,5,LauraB,2021-04-10_12h23.36.697,task,3.2.3,MacIntel,60,,,,,,,,,,,,0.003665975,0.359085558,1,0,0,534.0049999,1,0,16,13,1,15,,
,,,,,,,,,,,,,,-1,1,-1,0,0,0,1,-1,1,0,0,0,0,0,0,1,1,-1,0,0,0,0,0,0,-1,1,-1,0,3,7,1,LauraB,2021-04-10_12h23.36.697,task,3.2.3,MacIntel,60,,,,,,,,,,,,0.3479206,0.015960897,1,0,0,548.2199998,1,0,16,1,1,15,,
,,,,,,,,,,,,,,-1,1,-1,0,0,0,0,0,0,1,-1,-1,0,0,0,0,0,0,0,0,0,1,-1,1,1,-1,1,315,3,7,0,LauraB,2021-04-10_12h23.36.697,task,3.2.3,MacIntel,60,,,,,,,,,,,,0.284141846,-0.228938192,1,0,0,564.7199998,1,0,16,0,1,15,,
,,,,,,,,,,,,,,,,,,,,,,,,,,,,,,,,,,,,,,,,,,,,,LauraB,2021-04-10_12h23.36.697,task,3.2.3,MacIntel,60,,,,,,,,,,,,,,,,,,,,,,,,space,0.259000063
